PE UV                   SPECTRUM    ASCII       PEDS        1.60        
  -1
VO26_LT.SP
21/12/13
11:08:56.00
21/12/13
11:13:35.00


300.000000
1









4444

SCAN
1
1


0.0

5.00
MANUAL



VIS




































#HDR
-1
-1
#GR
NM
%T
0.00002384185791015625
0.0
2500.000000
5.000000
441
8
60.184491
22.206008
#DATA
2500.000000	45.560231 
2495.000000	43.067859 
2490.000000	45.749295 
2485.000000	44.211623 
2480.000000	45.679667 
2475.000000	44.013237 
2470.000000	44.430748 
2465.000000	44.074811 
2460.000000	43.635295 
2455.000000	44.479498 
2450.000000	46.394353 
2445.000000	44.814913 
2440.000000	43.847956 
2435.000000	46.575294 
2430.000000	45.663997 
2425.000000	45.421355 
2420.000000	43.133034 
2415.000000	45.848909 
2410.000000	45.307459 
2405.000000	44.640438 
2400.000000	44.627355 
2395.000000	44.493358 
2390.000000	46.217906 
2385.000000	44.633112 
2380.000000	44.867244 
2375.000000	45.959334 
2370.000000	45.247014 
2365.000000	45.404441 
2360.000000	45.676616 
2355.000000	43.706180 
2350.000000	46.020844 
2345.000000	44.374941 
2340.000000	45.695129 
2335.000000	45.497934 
2330.000000	44.955233 
2325.000000	46.173571 
2320.000000	45.475565 
2315.000000	45.469354 
2310.000000	45.999503 
2305.000000	45.236858 
2300.000000	44.120299 
2295.000000	45.719758 
2290.000000	45.149058 
2285.000000	45.428453 
2280.000000	44.593619 
2275.000000	45.137012 
2270.000000	45.345355 
2265.000000	45.218911 
2260.000000	45.426122 
2255.000000	45.173994 
2250.000000	45.357225 
2245.000000	45.652656 
2240.000000	45.466471 
2235.000000	45.400978 
2230.000000	45.331521 
2225.000000	44.983514 
2220.000000	45.671470 
2215.000000	45.867008 
2210.000000	45.494403 
2205.000000	45.032753 
2200.000000	45.786505 
2195.000000	45.670149 
2190.000000	45.640375 
2185.000000	45.348327 
2180.000000	45.331523 
2175.000000	45.560699 
2170.000000	45.232565 
2165.000000	45.300007 
2160.000000	45.789897 
2155.000000	45.675125 
2150.000000	46.402712 
2145.000000	45.961050 
2140.000000	46.140770 
2135.000000	45.644601 
2130.000000	45.445395 
2125.000000	46.141680 
2120.000000	45.299757 
2115.000000	45.798049 
2110.000000	45.991261 
2105.000000	45.689486 
2100.000000	45.820890 
2095.000000	45.815804 
2090.000000	45.956049 
2085.000000	45.957959 
2080.000000	46.077691 
2075.000000	45.757912 
2070.000000	45.988889 
2065.000000	45.984767 
2060.000000	45.873101 
2055.000000	45.803686 
2050.000000	46.175346 
2045.000000	46.017404 
2040.000000	46.128023 
2035.000000	45.942512 
2030.000000	45.858929 
2025.000000	46.104731 
2020.000000	46.028480 
2015.000000	46.138992 
2010.000000	46.166015 
2005.000000	46.014098 
2000.000000	45.883697 
1995.000000	46.053030 
1990.000000	46.230128 
1985.000000	46.194716 
1980.000000	45.842141 
1975.000000	46.148870 
1970.000000	46.373158 
1965.000000	46.149842 
1960.000000	46.321054 
1955.000000	46.446897 
1950.000000	46.262790 
1945.000000	46.457798 
1940.000000	46.379910 
1935.000000	46.216830 
1930.000000	46.318885 
1925.000000	46.231567 
1920.000000	46.543744 
1915.000000	46.514607 
1910.000000	46.643892 
1905.000000	46.586270 
1900.000000	46.198191 
1895.000000	46.360591 
1890.000000	46.337238 
1885.000000	46.342224 
1880.000000	46.582571 
1875.000000	46.315063 
1870.000000	46.523163 
1865.000000	46.494299 
1860.000000	46.384481 
1855.000000	46.510535 
1850.000000	46.602544 
1845.000000	46.475887 
1840.000000	46.682650 
1835.000000	46.711651 
1830.000000	46.687911 
1825.000000	46.823655 
1820.000000	46.554308 
1815.000000	46.546338 
1810.000000	46.652529 
1805.000000	46.671882 
1800.000000	46.743041 
1795.000000	46.685130 
1790.000000	46.752248 
1785.000000	46.738503 
1780.000000	46.739096 
1775.000000	46.858438 
1770.000000	46.918842 
1765.000000	46.870925 
1760.000000	46.922616 
1755.000000	46.879783 
1750.000000	46.926705 
1745.000000	46.969964 
1740.000000	47.078304 
1735.000000	46.960831 
1730.000000	47.033150 
1725.000000	47.123136 
1720.000000	47.056790 
1715.000000	46.984425 
1710.000000	47.152228 
1705.000000	47.134322 
1700.000000	47.097270 
1695.000000	47.105343 
1690.000000	47.128441 
1685.000000	47.141313 
1680.000000	47.159441 
1675.000000	47.224853 
1670.000000	47.261921 
1665.000000	47.182296 
1660.000000	47.315651 
1655.000000	47.339602 
1650.000000	47.415319 
1645.000000	47.404591 
1640.000000	47.418607 
1635.000000	47.407801 
1630.000000	47.462116 
1625.000000	47.516014 
1620.000000	47.533099 
1615.000000	47.554114 
1610.000000	47.558059 
1605.000000	47.624113 
1600.000000	47.661249 
1595.000000	47.686881 
1590.000000	47.721454 
1585.000000	47.773230 
1580.000000	47.788779 
1575.000000	47.741703 
1570.000000	47.760200 
1565.000000	47.786522 
1560.000000	47.821711 
1555.000000	47.910612 
1550.000000	48.001504 
1545.000000	48.010275 
1540.000000	48.005073 
1535.000000	48.037098 
1530.000000	48.076163 
1525.000000	48.154084 
1520.000000	48.119107 
1515.000000	48.126667 
1510.000000	48.165228 
1505.000000	48.270757 
1500.000000	48.271390 
1495.000000	48.321203 
1490.000000	48.408349 
1485.000000	48.399635 
1480.000000	48.407563 
1475.000000	48.421562 
1470.000000	48.510406 
1465.000000	48.555328 
1460.000000	48.567591 
1455.000000	48.615735 
1450.000000	48.652138 
1445.000000	48.637218 
1440.000000	48.726857 
1435.000000	48.816186 
1430.000000	48.879969 
1425.000000	48.904334 
1420.000000	48.924238 
1415.000000	48.917387 
1410.000000	48.952624 
1405.000000	48.985670 
1400.000000	49.017280 
1395.000000	49.081732 
1390.000000	49.152358 
1385.000000	49.215606 
1380.000000	49.303043 
1375.000000	49.345936 
1370.000000	49.393143 
1365.000000	49.444097 
1360.000000	49.474989 
1355.000000	49.521592 
1350.000000	49.533905 
1345.000000	49.581250 
1340.000000	49.665348 
1335.000000	49.702887 
1330.000000	49.752258 
1325.000000	49.810978 
1320.000000	49.892517 
1315.000000	49.949803 
1310.000000	50.004626 
1305.000000	50.068550 
1300.000000	50.106511 
1295.000000	50.157362 
1290.000000	50.217290 
1285.000000	50.271818 
1280.000000	50.334199 
1275.000000	50.407415 
1270.000000	50.459760 
1265.000000	50.531730 
1260.000000	50.622888 
1255.000000	50.676689 
1250.000000	50.702455 
1245.000000	50.776647 
1240.000000	50.858436 
1235.000000	50.896239 
1230.000000	50.940193 
1225.000000	51.017491 
1220.000000	51.098006 
1215.000000	51.157163 
1210.000000	51.217062 
1205.000000	51.288640 
1200.000000	51.363737 
1195.000000	51.443876 
1190.000000	51.520827 
1185.000000	51.558965 
1180.000000	51.632299 
1175.000000	51.722942 
1170.000000	51.786295 
1165.000000	51.844171 
1160.000000	51.894144 
1155.000000	51.986960 
1150.000000	52.056636 
1145.000000	52.136467 
1140.000000	52.225794 
1135.000000	52.296899 
1130.000000	52.392642 
1125.000000	52.478771 
1120.000000	52.524127 
1115.000000	52.599397 
1110.000000	52.704883 
1105.000000	52.791936 
1100.000000	52.870916 
1095.000000	52.939207 
1090.000000	53.015787 
1085.000000	53.106193 
1080.000000	53.190998 
1075.000000	53.273427 
1070.000000	53.390402 
1065.000000	53.457678 
1060.000000	53.517530 
1055.000000	53.584226 
1050.000000	53.704723 
1045.000000	53.801105 
1040.000000	53.815210 
1035.000000	53.893804 
1030.000000	53.966383 
1025.000000	54.060304 
1020.000000	54.222193 
1015.000000	54.326060 
1010.000000	54.422060 
1005.000000	54.524204 
1000.000000	54.593530 
995.000000	 54.693873 
990.000000	 54.796706 
985.000000	 54.912784 
980.000000	 55.033817 
975.000000	 55.134843 
970.000000	 55.198859 
965.000000	 55.269840 
960.000000	 55.418411 
955.000000	 55.529126 
950.000000	 55.579416 
945.000000	 55.631356 
940.000000	 55.891326 
935.000000	 56.030143 
930.000000	 56.017939 
925.000000	 56.078466 
920.000000	 56.248452 
915.000000	 56.399486 
910.000000	 56.513196 
905.000000	 56.559463 
900.000000	 56.747559 
895.000000	 56.967604 
890.000000	 56.924947 
885.000000	 56.906663 
880.000000	 57.076482 
875.000000	 57.303057 
870.000000	 57.171395 
865.000000	 57.634967 
860.000000	 57.577196 
855.000000	 57.474177 
850.000000	 57.677629 
845.000000	 57.821922 
840.000000	 57.962395 
835.000000	 57.959073 
830.000000	 58.084108 
825.000000	 58.187973 
820.000000	 58.284601 
815.000000	 58.371132 
810.000000	 58.477482 
805.000000	 58.527712 
800.000000	 58.597343 
795.000000	 58.720431 
790.000000	 58.815649 
785.000000	 58.895464 
780.000000	 58.965612 
775.000000	 59.081097 
770.000000	 59.188206 
765.000000	 59.237622 
760.000000	 59.307144 
755.000000	 59.366384 
750.000000	 59.458694 
745.000000	 59.551462 
740.000000	 59.597392 
735.000000	 59.670841 
730.000000	 59.735046 
725.000000	 59.816235 
720.000000	 59.850273 
715.000000	 59.877655 
710.000000	 59.967479 
705.000000	 60.019549 
700.000000	 60.042701 
695.000000	 60.082309 
690.000000	 60.108604 
685.000000	 60.135028 
680.000000	 60.148395 
675.000000	 60.167182 
670.000000	 60.167435 
665.000000	 60.174100 
660.000000	 60.184339 
655.000000	 60.184491 
650.000000	 60.168980 
645.000000	 60.182080 
640.000000	 60.145965 
635.000000	 60.097933 
630.000000	 59.989502 
625.000000	 59.924536 
620.000000	 59.901062 
615.000000	 59.855496 
610.000000	 59.800648 
605.000000	 59.705541 
600.000000	 59.624076 
595.000000	 59.542441 
590.000000	 59.442711 
585.000000	 59.353021 
580.000000	 59.230407 
575.000000	 59.113435 
570.000000	 59.029219 
565.000000	 58.923751 
560.000000	 58.789764 
555.000000	 58.691090 
550.000000	 58.584149 
545.000000	 58.438104 
540.000000	 58.322701 
535.000000	 58.204064 
530.000000	 58.062433 
525.000000	 57.939919 
520.000000	 57.769048 
515.000000	 57.578107 
510.000000	 57.395741 
505.000000	 57.233249 
500.000000	 57.029654 
495.000000	 56.831072 
490.000000	 56.587693 
485.000000	 56.369958 
480.000000	 56.163086 
475.000000	 55.907173 
470.000000	 55.627449 
465.000000	 55.324426 
460.000000	 54.941763 
455.000000	 54.529291 
450.000000	 54.060380 
445.000000	 53.552958 
440.000000	 52.982693 
435.000000	 52.347384 
430.000000	 51.682485 
425.000000	 50.928646 
420.000000	 50.099029 
415.000000	 49.225552 
410.000000	 48.286165 
405.000000	 47.275559 
400.000000	 46.207638 
395.000000	 45.098585 
390.000000	 43.944597 
385.000000	 42.781270 
380.000000	 41.626024 
375.000000	 40.387984 
370.000000	 39.255728 
365.000000	 38.141780 
360.000000	 37.032957 
355.000000	 35.950361 
350.000000	 34.908693 
345.000000	 33.802861 
340.000000	 32.667614 
335.000000	 31.585730 
330.000000	 30.543545 
325.000000	 29.321910 
320.000000	 28.121924 
315.000000	 26.862160 
310.000000	 25.448819 
305.000000	 23.906670 
300.000000	 22.206008 

